File: fpSelectionWebApp/target/fpSelectionWebApp-1.0/WEB-INF/classes/Fluorophores/org/MagnesiumPhthalocyanine.csv
Absorption wavelength (nm);normalized Absorption;emission wavelength (nm);Normalized emission;
340;0.2523;660;0.0847;
341;0.2553;661;0.1116;
342;0.2658;662;0.1403;
343;0.2640;663;0.1780;
344;0.2582;664;0.2206;
345;0.2638;665;0.2699;
346;0.2615;666;0.3289;
347;0.2639;667;0.3932;
348;0.2642;668;0.4623;
349;0.2671;669;0.5344;
350;0.2623;670;0.6098;
351;0.2614;671;0.6888;
352;0.2573;672;0.7692;
353;0.2573;673;0.8350;
354;0.2564;674;0.8940;
355;0.2547;675;0.9386;
356;0.2508;676;0.9754;
357;0.2507;677;0.9975;
358;0.2456;678;1.0000;
359;0.2440;679;0.9945;
360;0.2423;680;0.9692;
361;0.2380;681;0.9377;
362;0.2369;682;0.8983;
363;0.2345;683;0.8468;
364;0.2336;684;0.7898;
365;0.2270;685;0.7351;
366;0.2262;686;0.6796;
367;0.2204;687;0.6283;
368;0.2148;688;0.5790;
369;0.2081;689;0.5342;
370;0.2031;690;0.4889;
371;0.1973;691;0.4483;
372;0.1928;692;0.4131;
373;0.1866;693;0.3763;
374;0.1786;694;0.3464;
375;0.1755;695;0.3170;
376;0.1690;696;0.2936;
377;0.1571;697;0.2722;
378;0.1500;698;0.2535;
379;0.1411;699;0.2412;
380;0.1333;700;0.2298;
381;0.1289;701;0.2189;
382;0.1174;702;0.2102;
383;0.1112;703;0.2059;
384;0.1040;704;0.1992;
385;0.0955;705;0.1961;
386;0.0894;706;0.1907;
387;0.0836;707;0.1878;
388;0.0777;708;0.1829;
389;0.0742;709;0.1812;
390;0.0670;710;0.1767;
391;0.0630;711;0.1727;
392;0.0584;712;0.1691;
393;0.0568;713;0.1650;
394;0.0524;714;0.1621;
395;0.0473;715;0.1546;
396;0.0458;716;0.1504;
397;0.0430;717;0.1464;
398;0.0412;718;0.1408;
399;0.0367;719;0.1348;
400;0.0352;720;0.1300;
401;0.0332;721;0.1262;
402;0.0312;722;0.1217;
403;0.0290;723;0.1178;
404;0.0263;724;0.1154;
405;0.0239;725;0.1136;
406;0.0238;726;0.1106;
407;0.0220;727;0.1104;
408;0.0197;728;0.1100;
409;0.0179;729;0.1086;
410;0.0187;730;0.1097;
411;0.0148;731;0.1089;
412;0.0151;732;0.1112;
413;0.0138;733;0.1115;
414;0.0105;734;0.1140;
415;0.0094;735;0.1158;
416;0.0105;736;0.1183;
417;0.0098;737;0.1224;
418;0.0096;738;0.1234;
419;0.0084;739;0.1264;
420;0.0076;740;0.1313;
421;0.0081;741;0.1320;
422;0.0073;742;0.1353;
423;0.0066;743;0.1366;
424;0.0067;744;0.1409;
425;0.0053;745;0.1400;
426;0.0065;746;0.1412;
427;0.0063;747;0.1437;
428;0.0064;748;0.1436;
429;0.0075;749;0.1436;
430;0.0068;750;0.1427;
431;0.0075;751;0.1398;
432;0.0051;752;0.1380;
433;0.0054;753;0.1360;
434;0.0056;754;0.1334;
435;0.0062;755;0.1260;
436;0.0041;756;0.1222;
437;0.0035;757;0.1176;
438;0.0030;758;0.1107;
439;0.0034;759;0.1076;
440;0.0030;760;0.0993;
441;0.0036;761;0.0957;
442;0.0036;762;0.0884;
443;0.0027;763;0.0844;
444;0.0030;764;0.0807;
445;0.0048;765;0.0749;
446;0.0026;766;0.0696;
447;0.0009;767;0.0661;
448;0.0027;768;0.0600;
449;0.0035;769;0.0566;
450;0.0018;770;0.0509;
451;0.0007;771;0.0506;
452;0.0029;772;0.0456;
453;0.0005;773;0.0418;
454;0.0010;774;0.0409;
455;0.0017;775;0.0372;
456;0.0004;776;0.0360;
457;0.0024;777;0.0346;
458;0.0018;778;0.0320;
459;0.0016;779;0.0306;
460;0.0020;780;0.0306;
462;0.0016;781;0.0274;
463;0.0016;782;0.0265;
464;0.0006;783;0.0265;
465;0.0001;784;0.0248;
466;0.0012;785;0.0244;
467;0.0000;786;0.0230;
468;0.0001;787;0.0224;
469;0.0002;788;0.0220;
470;0.0009;789;0.0221;
474;0.0005;790;0.0200;
477;0.0008;791;0.0200;
478;0.0009;792;0.0199;
481;0.0000;793;0.0191;
482;0.0002;794;0.0177;
484;0.0008;795;0.0184;
485;0.0015;796;0.0178;
486;0.0008;797;0.0181;
488;0.0014;798;0.0154;
489;0.0002;799;0.0157;
490;0.0016;800;0.0158;
492;0.0006;;;
494;0.0008;;;
495;0.0000;;;
496;0.0010;;;
497;0.0003;;;
498;0.0011;;;
499;0.0011;;;
500;0.0018;;;
501;0.0008;;;
502;0.0009;;;
503;0.0014;;;
506;0.0003;;;
507;0.0005;;;
509;0.0004;;;
510;0.0009;;;
511;0.0015;;;
512;0.0018;;;
513;0.0010;;;
514;0.0020;;;
515;0.0004;;;
516;0.0018;;;
517;0.0028;;;
518;0.0007;;;
520;0.0017;;;
521;0.0014;;;
522;0.0021;;;
523;0.0017;;;
524;0.0048;;;
525;0.0035;;;
526;0.0017;;;
527;0.0028;;;
528;0.0041;;;
529;0.0017;;;
530;0.0014;;;
531;0.0031;;;
532;0.0024;;;
533;0.0004;;;
534;0.0019;;;
535;0.0046;;;
536;0.0034;;;
537;0.0042;;;
538;0.0047;;;
539;0.0032;;;
540;0.0039;;;
541;0.0042;;;
542;0.0033;;;
543;0.0044;;;
544;0.0043;;;
545;0.0035;;;
546;0.0054;;;
547;0.0043;;;
548;0.0057;;;
549;0.0052;;;
550;0.0068;;;
551;0.0049;;;
552;0.0073;;;
553;0.0084;;;
554;0.0082;;;
555;0.0100;;;
556;0.0104;;;
557;0.0120;;;
558;0.0121;;;
559;0.0144;;;
560;0.0159;;;
561;0.0151;;;
562;0.0168;;;
563;0.0157;;;
564;0.0160;;;
565;0.0169;;;
566;0.0170;;;
567;0.0182;;;
568;0.0189;;;
569;0.0180;;;
570;0.0175;;;
571;0.0191;;;
572;0.0191;;;
573;0.0196;;;
574;0.0202;;;
575;0.0186;;;
576;0.0196;;;
577;0.0209;;;
578;0.0225;;;
579;0.0233;;;
580;0.0248;;;
581;0.0268;;;
582;0.0270;;;
583;0.0282;;;
584;0.0292;;;
585;0.0288;;;
586;0.0295;;;
587;0.0297;;;
588;0.0306;;;
589;0.0310;;;
590;0.0313;;;
591;0.0330;;;
592;0.0347;;;
593;0.0369;;;
594;0.0399;;;
595;0.0454;;;
596;0.0486;;;
597;0.0534;;;
598;0.0604;;;
599;0.0665;;;
600;0.0746;;;
601;0.0842;;;
602;0.0954;;;
603;0.1083;;;
604;0.1192;;;
605;0.1311;;;
606;0.1424;;;
607;0.1478;;;
608;0.1503;;;
609;0.1524;;;
610;0.1501;;;
611;0.1418;;;
612;0.1368;;;
613;0.1320;;;
614;0.1249;;;
615;0.1201;;;
616;0.1162;;;
617;0.1102;;;
618;0.1047;;;
619;0.1014;;;
620;0.0990;;;
621;0.0934;;;
622;0.0882;;;
623;0.0859;;;
624;0.0839;;;
625;0.0802;;;
626;0.0781;;;
627;0.0752;;;
628;0.0742;;;
629;0.0738;;;
630;0.0748;;;
631;0.0758;;;
632;0.0778;;;
633;0.0797;;;
634;0.0841;;;
635;0.0912;;;
636;0.0954;;;
637;0.1021;;;
638;0.1081;;;
639;0.1140;;;
640;0.1179;;;
641;0.1234;;;
642;0.1292;;;
643;0.1310;;;
644;0.1317;;;
645;0.1323;;;
646;0.1321;;;
647;0.1311;;;
648;0.1293;;;
649;0.1282;;;
650;0.1272;;;
651;0.1288;;;
652;0.1316;;;
653;0.1375;;;
654;0.1423;;;
655;0.1504;;;
656;0.1620;;;
657;0.1755;;;
658;0.1918;;;
659;0.2146;;;
660;0.2399;;;
661;0.2724;;;
662;0.3168;;;
663;0.3705;;;
664;0.4353;;;
665;0.5062;;;
666;0.5831;;;
667;0.6613;;;
668;0.7377;;;
669;0.8072;;;
670;0.8704;;;
671;0.9266;;;
672;0.9630;;;
673;0.9909;;;
674;1.0000;;;
675;0.9878;;;
676;0.9607;;;
677;0.9185;;;
678;0.8650;;;
679;0.8020;;;
680;0.7362;;;
681;0.6651;;;
682;0.5935;;;
683;0.5234;;;
684;0.4562;;;
685;0.3940;;;
686;0.3383;;;
687;0.2856;;;
688;0.2422;;;
689;0.2037;;;
690;0.1688;;;
691;0.1398;;;
692;0.1162;;;
693;0.0957;;;
694;0.0847;;;
695;0.0707;;;
696;0.0609;;;
697;0.0487;;;
698;0.0419;;;
699;0.0354;;;
700;0.0295;;;
701;0.0237;;;
702;0.0210;;;
703;0.0186;;;
704;0.0144;;;
705;0.0131;;;
706;0.0123;;;
707;0.0111;;;
708;0.0084;;;
709;0.0077;;;
710;0.0078;;;
711;0.0067;;;
712;0.0051;;;
713;0.0056;;;
714;0.0053;;;
715;0.0038;;;
716;0.0025;;;
717;0.0022;;;
718;0.0027;;;
719;0.0006;;;
720;0.0023;;;
721;0.0014;;;
722;0.0021;;;
723;0.0017;;;
724;0.0008;;;
725;0.0012;;;
726;0.0004;;;
727;0.0001;;;
729;0.0002;;;
731;0.0002;;;
733;0.0004;;;
734;0.0007;;;
809;0.0008;;;
810;0.0023;;;
811;0.0004;;;
812;0.0008;;;
813;0.0022;;;
814;0.0009;;;
815;0.0016;;;
816;0.0013;;;
817;0.0026;;;
818;0.0025;;;
819;0.0024;;;
820;0.0026;;;
821;0.0017;;;
822;0.0029;;;
823;0.0028;;;
824;0.0039;;;
825;0.0020;;;
826;0.0022;;;
827;0.0010;;;
828;0.0005;;;
829;0.0027;;;
830;0.0021;;;
831;0.0050;;;
832;0.0021;;;
833;0.0030;;;
834;0.0021;;;
835;0.0027;;;
836;0.0031;;;
837;0.0018;;;
838;0.0026;;;
839;0.0033;;;