File: fpSelection/src/main/resources/ScrapedCSVs/CrystalViolet.csv
Absorption wavelength (nm);normalized Absorption;emission wavelength (nm);Normalized emission;
220;0.2958;560;0.0181;
221;0.2649;561;0.0172;
222;0.1915;562;0.0185;
223;0.2085;563;0.0221;
224;0.1995;564;0.0232;
225;0.1780;565;0.0211;
226;0.1611;566;0.0265;
227;0.1519;567;0.0264;
228;0.1383;568;0.0294;
229;0.1216;569;0.0281;
230;0.1629;570;0.0295;
231;0.1508;571;0.0281;
232;0.1226;572;0.0308;
233;0.1398;573;0.0307;
234;0.1331;574;0.0370;
235;0.1410;575;0.0360;
236;0.1503;576;0.0391;
237;0.1435;577;0.0392;
238;0.1395;578;0.0418;
239;0.1453;579;0.0455;
240;0.1673;580;0.0494;
241;0.1685;581;0.0505;
242;0.1572;582;0.0569;
243;0.2004;583;0.0621;
244;0.2117;584;0.0610;
245;0.1758;585;0.0695;
246;0.1959;586;0.0733;
247;0.1999;587;0.0787;
248;0.2034;588;0.0860;
249;0.2277;589;0.0960;
250;0.2087;590;0.1048;
251;0.2180;591;0.1103;
252;0.2157;592;0.1232;
253;0.1795;593;0.1361;
254;0.2065;594;0.1503;
255;0.1988;595;0.1667;
256;0.2011;596;0.1866;
257;0.1718;597;0.2057;
258;0.1638;598;0.2208;
259;0.1629;599;0.2406;
260;0.1416;600;0.2643;
261;0.1247;601;0.2818;
262;0.1357;602;0.3151;
263;0.1527;603;0.3393;
264;0.1330;604;0.3684;
265;0.0966;605;0.3875;
266;0.1413;606;0.4297;
267;0.1498;607;0.4608;
268;0.1246;608;0.4902;
269;0.1100;609;0.5116;
270;0.0870;610;0.5375;
271;0.1194;611;0.5710;
272;0.1265;612;0.6086;
273;0.1162;613;0.6319;
274;0.1191;614;0.6610;
275;0.1080;615;0.6899;
276;0.1131;616;0.7206;
277;0.1202;617;0.7417;
278;0.1235;618;0.7839;
279;0.1417;619;0.7896;
280;0.1237;620;0.8146;
281;0.1346;621;0.8303;
282;0.1187;622;0.8629;
283;0.1186;623;0.8912;
284;0.1291;624;0.8911;
285;0.1371;625;0.9127;
286;0.1370;626;0.9193;
287;0.1504;627;0.9218;
288;0.1295;628;0.9509;
289;0.1702;629;0.9676;
290;0.1672;630;0.9546;
291;0.1838;631;0.9627;
292;0.1981;632;0.9736;
293;0.2283;633;0.9930;
294;0.1940;634;0.9786;
295;0.2086;635;0.9816;
296;0.2028;636;0.9978;
297;0.2039;637;0.9842;
298;0.2328;638;1.0000;
299;0.2437;639;0.9860;
300;0.2452;640;0.9732;
301;0.2667;641;0.9708;
302;0.2557;642;0.9719;
303;0.2449;643;0.9536;
304;0.2437;644;0.9460;
305;0.2506;645;0.9530;
306;0.2449;646;0.9292;
307;0.2313;647;0.9402;
308;0.2207;648;0.9172;
309;0.2406;649;0.9259;
310;0.1913;650;0.9071;
311;0.1700;651;0.9017;
312;0.1184;652;0.8974;
313;0.1752;653;0.8980;
314;0.1226;654;0.8894;
315;0.1170;655;0.8760;
316;0.1156;656;0.8864;
317;0.0501;657;0.8731;
318;0.1444;658;0.8528;
319;0.1174;659;0.8304;
320;0.0594;660;0.8280;
321;0.1250;661;0.8269;
322;0.1521;662;0.8057;
323;0.0807;663;0.7939;
324;0.1476;664;0.7905;
325;0.0539;665;0.7868;
326;0.0678;666;0.7794;
327;0.0116;667;0.7759;
328;0.1099;668;0.7597;
329;0.0347;669;0.7451;
330;0.0614;670;0.7539;
331;0.0437;671;0.7413;
332;0.0552;672;0.7299;
333;0.0291;673;0.7153;
334;0.0767;674;0.7215;
335;0.0221;675;0.6979;
336;0.0498;676;0.7133;
337;0.0687;677;0.6854;
338;0.0310;678;0.6819;
339;0.0422;679;0.6780;
340;0.0045;680;0.6550;
341;0.0352;681;0.6447;
342;0.0016;682;0.6453;
343;0.0071;683;0.6595;
344;0.0529;684;0.6320;
345;0.0642;685;0.6391;
346;0.0282;686;0.6315;
347;0.0285;687;0.6127;
348;0.0386;688;0.6191;
349;0.0427;689;0.6079;
350;0.0090;690;0.5983;
351;0.0502;691;0.5854;
352;0.0151;692;0.5925;
354;0.0395;693;0.5700;
355;0.0415;694;0.5772;
356;0.0563;695;0.5545;
357;0.0353;696;0.5655;
358;0.0222;697;0.5630;
359;0.0343;698;0.5461;
360;0.0754;699;0.5410;
361;0.0527;700;0.5258;
362;0.0137;701;0.5347;
363;0.0864;702;0.5160;
364;0.0397;703;0.5199;
365;0.0523;704;0.4982;
366;0.0317;705;0.4986;
367;0.0243;706;0.5038;
368;0.0165;707;0.4811;
369;0.0046;708;0.4792;
370;0.0798;709;0.4904;
371;0.0392;710;0.4631;
372;0.0151;711;0.4665;
373;0.0006;712;0.4584;
374;0.0678;713;0.4344;
375;0.0436;714;0.4441;
376;0.0145;715;0.4388;
377;0.0160;716;0.4310;
378;0.0330;717;0.4286;
379;0.0376;718;0.4329;
380;0.0538;719;0.4250;
381;0.0499;720;0.4167;
382;0.0282;721;0.3897;
383;0.0531;722;0.4094;
384;0.0126;723;0.3670;
385;0.0210;724;0.3872;
386;0.0433;725;0.3652;
388;0.0343;726;0.3531;
389;0.0239;727;0.3721;
391;0.0487;728;0.3617;
392;0.0115;729;0.3698;
394;0.0069;730;0.3435;
395;0.0300;731;0.3439;
396;0.0368;732;0.3418;
397;0.0220;733;0.3440;
399;0.0215;734;0.3381;
400;0.0106;735;0.3431;
401;0.0056;736;0.3284;
402;0.0205;737;0.3207;
403;0.0079;738;0.3206;
404;0.0243;739;0.3424;
406;0.0456;740;0.3082;
407;0.0081;741;0.2936;
408;0.0040;742;0.2962;
409;0.0281;743;0.2939;
410;0.0091;744;0.2832;
412;0.0537;745;0.2933;
413;0.0441;746;0.2843;
414;0.0028;747;0.2786;
416;0.0283;748;0.2699;
417;0.0423;749;0.2719;
419;0.0155;750;0.2725;
420;0.0236;751;0.2687;
421;0.0105;752;0.2646;
423;0.0109;753;0.2668;
425;0.0573;754;0.2607;
426;0.0214;755;0.2398;
427;0.0160;756;0.2539;
428;0.0326;757;0.2489;
429;0.0079;758;0.2329;
430;0.0220;759;0.2238;
431;0.0242;760;0.2270;
433;0.0091;761;0.2303;
434;0.0252;762;0.2096;
435;0.0092;763;0.2175;
436;0.0129;764;0.2108;
437;0.0140;765;0.1987;
438;0.0091;766;0.1993;
439;0.0340;767;0.2381;
440;0.0134;768;0.2182;
441;0.0077;769;0.2081;
442;0.0300;770;0.2143;
443;0.0182;771;0.1971;
444;0.0345;772;0.1783;
445;0.0290;773;0.2063;
447;0.0180;774;0.1982;
450;0.0553;775;0.1960;
451;0.0189;776;0.1861;
452;0.0169;777;0.1631;
453;0.0313;778;0.1867;
454;0.0363;779;0.1797;
455;0.0169;780;0.2069;
456;0.0277;781;0.1787;
457;0.0281;782;0.1927;
458;0.0311;783;0.1758;
459;0.0464;784;0.1597;
460;0.0308;785;0.1711;
461;0.0400;786;0.1894;
462;0.0317;787;0.1401;
463;0.0978;788;0.1665;
464;0.0683;789;0.1626;
465;0.0668;790;0.1498;
466;0.0443;791;0.1416;
467;0.0548;792;0.1513;
468;0.0700;793;0.1519;
469;0.0395;794;0.1373;
470;0.0688;795;0.1524;
471;0.0740;796;0.1667;
472;0.0693;797;0.1511;
473;0.0792;798;0.1143;
474;0.0653;799;0.1204;
475;0.1162;800;0.1416;
476;0.0518;;;
477;0.0581;;;
478;0.0755;;;
479;0.1216;;;
480;0.1154;;;
481;0.1119;;;
482;0.1281;;;
483;0.1131;;;
484;0.1034;;;
485;0.1451;;;
486;0.1239;;;
487;0.1262;;;
488;0.1191;;;
489;0.1669;;;
490;0.1566;;;
491;0.1618;;;
492;0.1658;;;
493;0.1532;;;
494;0.1285;;;
495;0.1607;;;
496;0.2155;;;
497;0.2232;;;
498;0.2191;;;
499;0.2206;;;
500;0.2407;;;
501;0.2120;;;
502;0.2278;;;
503;0.2451;;;
504;0.2782;;;
505;0.2647;;;
506;0.2502;;;
507;0.2979;;;
508;0.3035;;;
509;0.3278;;;
510;0.3320;;;
511;0.3097;;;
512;0.3343;;;
513;0.3544;;;
514;0.3648;;;
515;0.3472;;;
516;0.3896;;;
517;0.4021;;;
518;0.4170;;;
519;0.4437;;;
520;0.4199;;;
521;0.4413;;;
522;0.4633;;;
523;0.4667;;;
524;0.4712;;;
525;0.4903;;;
526;0.4789;;;
527;0.4984;;;
528;0.5241;;;
529;0.5371;;;
530;0.5239;;;
531;0.5547;;;
532;0.5568;;;
533;0.6003;;;
534;0.5683;;;
535;0.5881;;;
536;0.6493;;;
537;0.5728;;;
538;0.5697;;;
539;0.6115;;;
540;0.6310;;;
541;0.6390;;;
542;0.6352;;;
543;0.6911;;;
544;0.6397;;;
545;0.6581;;;
546;0.6785;;;
547;0.6566;;;
548;0.6589;;;
549;0.6650;;;
550;0.6712;;;
551;0.6803;;;
552;0.6748;;;
553;0.6583;;;
554;0.6995;;;
555;0.6855;;;
556;0.7051;;;
557;0.6812;;;
558;0.6923;;;
559;0.6621;;;
560;0.7060;;;
561;0.7112;;;
562;0.6888;;;
563;0.6970;;;
564;0.7331;;;
565;0.7383;;;
566;0.7496;;;
567;0.7577;;;
568;0.7674;;;
569;0.7456;;;
570;0.7936;;;
571;0.8039;;;
572;0.8021;;;
573;0.8091;;;
574;0.8306;;;
575;0.8170;;;
576;0.8778;;;
577;0.8914;;;
578;0.8420;;;
579;0.8906;;;
580;0.8931;;;
581;0.9147;;;
582;0.9069;;;
583;0.9481;;;
584;0.9386;;;
585;0.9629;;;
586;0.9768;;;
587;0.9863;;;
588;0.9645;;;
589;0.9813;;;
590;0.9944;;;
591;0.9795;;;
592;1.0000;;;
593;0.9568;;;
594;0.9680;;;
595;0.9522;;;
596;0.9544;;;
597;0.9308;;;
598;0.9417;;;
599;0.8818;;;
600;0.8923;;;
601;0.8408;;;
602;0.8167;;;
603;0.8187;;;
604;0.7956;;;
605;0.7613;;;
606;0.7365;;;
607;0.7067;;;
608;0.6745;;;
609;0.6633;;;
610;0.6220;;;
611;0.5899;;;
612;0.5843;;;
613;0.5352;;;
614;0.5010;;;
615;0.4337;;;
616;0.4285;;;
617;0.4363;;;
618;0.3789;;;
619;0.3185;;;
620;0.4031;;;
621;0.3740;;;
622;0.3357;;;
623;0.2837;;;
624;0.2528;;;
625;0.2624;;;
626;0.2190;;;
627;0.2051;;;
628;0.2350;;;
629;0.1984;;;
630;0.1643;;;
631;0.1632;;;
632;0.1653;;;
633;0.1558;;;
634;0.1360;;;
635;0.1241;;;
636;0.1156;;;
637;0.1104;;;
638;0.1473;;;
639;0.1191;;;
640;0.0844;;;
641;0.0655;;;
642;0.1387;;;
643;0.0698;;;
644;0.1011;;;
645;0.0557;;;
646;0.0594;;;
647;0.0326;;;
648;0.0150;;;
649;0.0316;;;
650;0.0330;;;
651;0.0336;;;
652;0.0210;;;
653;0.0476;;;
654;0.0413;;;
655;0.0398;;;
656;0.0341;;;
657;0.0215;;;
658;0.0111;;;
659;0.0061;;;
660;0.0028;;;
661;0.0117;;;
663;0.0236;;;
664;0.0338;;;
665;0.0275;;;
666;0.0105;;;
667;0.0065;;;
668;0.0097;;;
669;0.0019;;;
670;0.0378;;;
671;0.0033;;;
672;0.0152;;;
674;0.0351;;;
675;0.0417;;;
676;0.0220;;;
677;0.0172;;;
678;0.0444;;;
679;0.0065;;;
681;0.0214;;;
682;0.0161;;;
685;0.0057;;;
687;0.0159;;;
688;0.0232;;;
689;0.0047;;;
690;0.0131;;;
691;0.0106;;;
695;0.0241;;;
696;0.0066;;;
697;0.0494;;;
698;0.0105;;;
699;0.0266;;;
700;0.0375;;;
701;0.0360;;;
702;0.0195;;;
703;0.0126;;;
704;0.0119;;;
705;0.0206;;;
707;0.0066;;;
708;0.0217;;;
709;0.0177;;;
710;0.0039;;;
711;0.0166;;;
712;0.0129;;;
713;0.0052;;;
714;0.0181;;;
715;0.0291;;;
716;0.0137;;;
717;0.0342;;;
718;0.0307;;;
719;0.0199;;;