File: fpSelection/src/main/resources/ScrapedCSVs/MagnesiumTetraphenylporphyrin.csv
Absorption wavelength (nm);normalized Absorption;emission wavelength (nm);Normalized emission;
285;0.0278;575;0.0202;
286;0.0252;576;0.0204;
287;0.0291;577;0.0204;
288;0.0207;578;0.0207;
289;0.0206;579;0.0209;
290;0.0269;580;0.0212;
291;0.0254;581;0.0218;
292;0.0303;582;0.0225;
293;0.0301;583;0.0234;
294;0.0214;584;0.0248;
295;0.0338;585;0.0269;
296;0.0311;586;0.0297;
297;0.0284;587;0.0331;
298;0.0278;588;0.0381;
299;0.0240;589;0.0448;
300;0.0339;590;0.0535;
301;0.0305;591;0.0653;
302;0.0302;592;0.0813;
303;0.0218;593;0.1023;
304;0.0292;594;0.1310;
305;0.0242;595;0.1651;
306;0.0242;596;0.2104;
307;0.0298;597;0.2621;
308;0.0242;598;0.3257;
309;0.0253;599;0.3996;
310;0.0387;600;0.4780;
311;0.0265;601;0.5578;
312;0.0312;602;0.6377;
313;0.0356;603;0.7120;
314;0.0303;604;0.7731;
315;0.0287;605;0.8223;
316;0.0292;606;0.8587;
317;0.0269;607;0.8836;
318;0.0238;608;0.8953;
319;0.0329;609;0.8940;
320;0.0372;610;0.8847;
321;0.0265;611;0.8638;
322;0.0314;612;0.8371;
323;0.0214;613;0.8045;
324;0.0305;614;0.7690;
325;0.0338;615;0.7312;
326;0.0251;616;0.6932;
327;0.0279;617;0.6564;
328;0.0282;618;0.6179;
329;0.0224;619;0.5824;
330;0.0232;620;0.5464;
331;0.0200;621;0.5164;
332;0.0266;622;0.4851;
333;0.0228;623;0.4552;
334;0.0262;624;0.4264;
335;0.0225;625;0.3992;
336;0.0158;626;0.3750;
337;0.0249;627;0.3533;
338;0.0213;628;0.3344;
339;0.0168;629;0.3184;
340;0.0185;630;0.3064;
341;0.0151;631;0.2962;
342;0.0186;632;0.2881;
343;0.0158;633;0.2822;
344;0.0199;634;0.2794;
345;0.0169;635;0.2774;
346;0.0196;636;0.2776;
347;0.0138;637;0.2786;
348;0.0190;638;0.2818;
349;0.0170;639;0.2882;
350;0.0167;640;0.2959;
351;0.0203;641;0.3061;
352;0.0144;642;0.3179;
353;0.0159;643;0.3331;
354;0.0130;644;0.3510;
355;0.0138;645;0.3724;
356;0.0151;646;0.3967;
357;0.0122;647;0.4261;
358;0.0184;648;0.4590;
359;0.0186;649;0.4955;
360;0.0108;650;0.5367;
361;0.0111;651;0.5789;
362;0.0136;652;0.6240;
363;0.0136;653;0.6718;
364;0.0125;654;0.7152;
365;0.0143;655;0.7622;
366;0.0162;656;0.8038;
367;0.0191;657;0.8479;
368;0.0158;658;0.8880;
369;0.0140;659;0.9226;
370;0.0120;660;0.9547;
371;0.0125;661;0.9775;
372;0.0149;662;0.9910;
373;0.0148;663;1.0000;
374;0.0160;664;0.9980;
375;0.0144;665;0.9848;
376;0.0141;666;0.9697;
377;0.0127;667;0.9444;
378;0.0127;668;0.9158;
379;0.0126;669;0.8790;
380;0.0173;670;0.8384;
381;0.0152;671;0.7968;
382;0.0152;672;0.7469;
383;0.0156;673;0.6962;
384;0.0102;674;0.6477;
385;0.0123;675;0.5982;
386;0.0176;676;0.5534;
387;0.0154;677;0.5089;
388;0.0144;678;0.4692;
389;0.0161;679;0.4315;
390;0.0140;680;0.3960;
391;0.0160;681;0.3645;
392;0.0180;682;0.3330;
393;0.0158;683;0.3038;
394;0.0175;684;0.2774;
395;0.0188;685;0.2526;
396;0.0258;686;0.2307;
397;0.0313;687;0.2099;
398;0.0337;688;0.1931;
399;0.0469;689;0.1767;
400;0.0513;690;0.1618;
401;0.0611;691;0.1500;
402;0.0685;692;0.1370;
403;0.0730;693;0.1277;
404;0.0791;694;0.1167;
405;0.0785;695;0.1083;
406;0.0793;696;0.1012;
407;0.0736;697;0.0932;
408;0.0729;698;0.0871;
409;0.0710;699;0.0816;
410;0.0664;700;0.0769;
411;0.0684;701;0.0731;
412;0.0683;702;0.0696;
413;0.0767;703;0.0670;
414;0.0876;704;0.0643;
415;0.0951;705;0.0614;
416;0.1236;706;0.0601;
417;0.1564;707;0.0582;
418;0.1979;708;0.0574;
419;0.2490;709;0.0563;
420;0.3297;710;0.0547;
421;0.4383;711;0.0543;
422;0.5813;712;0.0546;
423;0.7391;713;0.0535;
424;0.8748;714;0.0534;
425;0.9695;715;0.0535;
426;1.0000;716;0.0532;
427;0.9631;717;0.0532;
428;0.8879;718;0.0526;
429;0.7719;719;0.0533;
430;0.6406;720;0.0520;
431;0.5108;721;0.0527;
432;0.3910;722;0.0525;
433;0.2910;723;0.0523;
434;0.2119;724;0.0518;
435;0.1516;725;0.0517;
436;0.0954;726;0.0507;
437;0.0694;727;0.0502;
438;0.0526;728;0.0500;
439;0.0394;729;0.0492;
440;0.0309;730;0.0483;
441;0.0257;731;0.0474;
442;0.0232;732;0.0461;
443;0.0183;733;0.0452;
444;0.0205;734;0.0443;
445;0.0145;735;0.0427;
446;0.0132;736;0.0413;
447;0.0122;737;0.0399;
448;0.0105;738;0.0388;
449;0.0093;739;0.0371;
450;0.0086;740;0.0361;
451;0.0072;741;0.0348;
452;0.0059;742;0.0326;
453;0.0075;743;0.0317;
454;0.0039;744;0.0295;
455;0.0054;745;0.0282;
456;0.0034;746;0.0270;
457;0.0063;747;0.0253;
458;0.0032;748;0.0239;
459;0.0026;749;0.0229;
460;0.0041;750;0.0215;
461;0.0042;751;0.0198;
462;0.0042;752;0.0191;
463;0.0053;753;0.0177;
464;0.0014;754;0.0169;
465;0.0035;755;0.0158;
466;0.0031;756;0.0149;
467;0.0038;757;0.0143;
468;0.0017;758;0.0134;
469;0.0034;759;0.0121;
470;0.0054;760;0.0119;
471;0.0049;761;0.0113;
472;0.0026;762;0.0106;
473;0.0047;763;0.0100;
474;0.0043;764;0.0099;
475;0.0013;765;0.0092;
476;0.0038;766;0.0091;
477;0.0027;767;0.0084;
478;0.0034;768;0.0083;
479;0.0030;769;0.0078;
480;0.0020;770;0.0073;
481;0.0044;771;0.0072;
482;0.0035;772;0.0070;
483;0.0044;773;0.0063;
484;0.0035;774;0.0063;
485;0.0046;775;0.0063;
486;0.0059;776;0.0060;
487;0.0049;777;0.0058;
488;0.0028;778;0.0056;
489;0.0042;779;0.0056;
490;0.0045;780;0.0056;
491;0.0029;781;0.0054;
492;0.0045;782;0.0051;
493;0.0049;783;0.0053;
494;0.0043;784;0.0050;
495;0.0066;785;0.0049;
496;0.0022;786;0.0048;
497;0.0061;787;0.0048;
498;0.0042;788;0.0046;
499;0.0036;789;0.0049;
500;0.0048;790;0.0047;
501;0.0048;791;0.0048;
502;0.0064;792;0.0044;
503;0.0082;793;0.0045;
504;0.0050;794;0.0047;
505;0.0050;795;0.0043;
506;0.0047;796;0.0044;
507;0.0041;797;0.0043;
508;0.0037;798;0.0044;
509;0.0039;799;0.0041;
510;0.0060;800;0.0042;
511;0.0055;;;
512;0.0061;;;
513;0.0054;;;
514;0.0072;;;
515;0.0076;;;
516;0.0088;;;
517;0.0062;;;
518;0.0067;;;
519;0.0079;;;
520;0.0071;;;
521;0.0057;;;
522;0.0095;;;
523;0.0084;;;
524;0.0068;;;
525;0.0084;;;
526;0.0085;;;
527;0.0101;;;
528;0.0065;;;
529;0.0076;;;
530;0.0057;;;
531;0.0082;;;
532;0.0062;;;
533;0.0077;;;
534;0.0061;;;
535;0.0073;;;
536;0.0065;;;
537;0.0087;;;
538;0.0051;;;
539;0.0079;;;
540;0.0095;;;
541;0.0086;;;
542;0.0086;;;
543;0.0093;;;
544;0.0074;;;
545;0.0104;;;
546;0.0120;;;
547;0.0131;;;
548;0.0130;;;
549;0.0158;;;
550;0.0149;;;
551;0.0183;;;
552;0.0216;;;
553;0.0205;;;
554;0.0225;;;
555;0.0254;;;
556;0.0261;;;
557;0.0296;;;
558;0.0308;;;
559;0.0336;;;
560;0.0366;;;
561;0.0351;;;
562;0.0367;;;
563;0.0377;;;
564;0.0407;;;
565;0.0382;;;
566;0.0347;;;
567;0.0335;;;
568;0.0327;;;
569;0.0290;;;
570;0.0280;;;
571;0.0241;;;
572;0.0239;;;
573;0.0216;;;
574;0.0212;;;
575;0.0163;;;
576;0.0154;;;
577;0.0159;;;
578;0.0158;;;
579;0.0123;;;
580;0.0126;;;
581;0.0100;;;
582;0.0120;;;
583;0.0097;;;
584;0.0098;;;
585;0.0089;;;
586;0.0098;;;
587;0.0081;;;
588;0.0072;;;
589;0.0078;;;
590;0.0073;;;
591;0.0083;;;
592;0.0111;;;
593;0.0098;;;
594;0.0098;;;
595;0.0126;;;
596;0.0111;;;
597;0.0114;;;
598;0.0167;;;
599;0.0166;;;
600;0.0187;;;
601;0.0172;;;
602;0.0164;;;
603;0.0200;;;
604;0.0196;;;
605;0.0166;;;
606;0.0181;;;
607;0.0171;;;
608;0.0143;;;
609;0.0142;;;
610;0.0135;;;
611;0.0127;;;
612;0.0121;;;
613;0.0104;;;
614;0.0092;;;
615;0.0074;;;
616;0.0054;;;
617;0.0042;;;
618;0.0044;;;
619;0.0053;;;
620;0.0037;;;
621;0.0050;;;
622;0.0049;;;
623;0.0034;;;
624;0.0051;;;
625;0.0062;;;
626;0.0041;;;
627;0.0062;;;
628;0.0031;;;
629;0.0015;;;
630;0.0015;;;
631;0.0048;;;
632;0.0045;;;
633;0.0044;;;
634;0.0031;;;
635;0.0023;;;
636;0.0020;;;
637;0.0013;;;
638;0.0042;;;
639;0.0031;;;
640;0.0030;;;
641;0.0025;;;
642;0.0041;;;
643;0.0032;;;
644;0.0019;;;
645;0.0009;;;
646;0.0008;;;
647;0.0028;;;
648;0.0031;;;
649;0.0018;;;
650;0.0004;;;
651;0.0054;;;
652;0.0053;;;
653;0.0019;;;
654;0.0027;;;
655;0.0042;;;
656;0.0036;;;
657;0.0045;;;
658;0.0015;;;
659;0.0008;;;
660;0.0031;;;
661;0.0027;;;
662;0.0041;;;
664;0.0029;;;
665;0.0064;;;
666;0.0024;;;
667;0.0008;;;
668;0.0066;;;
669;0.0038;;;
671;0.0040;;;
672;0.0058;;;
674;0.0059;;;
675;0.0067;;;
676;0.0027;;;
677;0.0045;;;
678;0.0040;;;
679;0.0057;;;
680;0.0045;;;
681;0.0031;;;
682;0.0047;;;
683;0.0020;;;
684;0.0012;;;
685;0.0046;;;
686;0.0036;;;
687;0.0072;;;
688;0.0040;;;
689;0.0051;;;
691;0.0041;;;
692;0.0060;;;
693;0.0010;;;
694;0.0032;;;
695;0.0008;;;
696;0.0028;;;
698;0.0049;;;
699;0.0045;;;
700;0.0014;;;
701;0.0036;;;
702;0.0007;;;
703;0.0023;;;
704;0.0009;;;
705;0.0013;;;
706;0.0001;;;
707;0.0022;;;
708;0.0026;;;
709;0.0009;;;
710;0.0016;;;
711;0.0051;;;
712;0.0030;;;
714;0.0014;;;
715;0.0007;;;
716;0.0046;;;
717;0.0044;;;
718;0.0062;;;
719;0.0062;;;
722;0.0074;;;
723;0.0028;;;
724;0.0050;;;
725;0.0023;;;
726;0.0010;;;
727;0.0055;;;
728;0.0035;;;
729;0.0022;;;
730;0.0028;;;
731;0.0024;;;
732;0.0070;;;
733;0.0032;;;
734;0.0026;;;
735;0.0030;;;
736;0.0035;;;
737;0.0002;;;
738;0.0022;;;
739;0.0017;;;
740;0.0021;;;
741;0.0054;;;
742;0.0016;;;
743;0.0062;;;
744;0.0015;;;
745;0.0001;;;
747;0.0091;;;
750;0.0046;;;
751;0.0043;;;
752;0.0039;;;
753;0.0009;;;
754;0.0010;;;
756;0.0052;;;
758;0.0047;;;
759;0.0109;;;
760;0.0042;;;
761;0.0028;;;
762;0.0036;;;
763;0.0052;;;
765;0.0057;;;
766;0.0075;;;
767;0.0004;;;
768;0.0063;;;
769;0.0014;;;
770;0.0037;;;
771;0.0048;;;
772;0.0093;;;
773;0.0019;;;
774;0.0036;;;
775;0.0056;;;
776;0.0018;;;
777;0.0038;;;
779;0.0048;;;
780;0.0031;;;
781;0.0008;;;
782;0.0041;;;
784;0.0023;;;
785;0.0058;;;
786;0.0006;;;
787;0.0014;;;
789;0.0077;;;
790;0.0070;;;
791;0.0030;;;
792;0.0017;;;
794;0.0036;;;
796;0.0021;;;
798;0.0119;;;
799;0.0049;;;